{
    "resourceType": "Bundle",
    "type": "searchset",
    "entry": [{
            "resource": {
                "resourceType": "Composition",
                "meta": {
                    "profile": ["http://fhir.nhs.net/StructureDefinition/gpconnect-carerecord-composition-1"]
                },
                "date": "2017-10-02T11:31:08+00:00",
                "type": {
                    "coding": [{
                            "system": "valueSet",
                            "code": "425173008",
                            "display": "record extract (record artifact)"
                        }],
                    "text": "record extract (record artifact)"
                },
                "title": "Patient Care Record",
                "status": "final",
                "subject": {
                    "reference": "Patient/2"
                },
                "author": [{
                        "reference": "Practitioner/3"
                    }],
                "section": [{
                        "title": "Summary",
                        "code": {
                            "coding": [{
                                    "system": "http://fhir.nhs.net/ValueSet/gpconnect-record-section-1",
                                    "code": "SUM",
                                    "display": "Summary"
                                }],
                            "text": "Summary"
                        },
                        "text": {
                            "status": "generated",
                            "div": "<div xmlns=\"http://www.w3.org/1999/xhtml\"><div><h2>Active Problems and Issues</h2><div><p>All relevant items</p></div><div><table><thead><tr><th>Start Date</th><th>Entry</th><th>Significance</th><th>Details</th></tr></thead><tbody><tr><td>2015-05-01 12:00:00.0</td><td>Type II diabetes mellitus</td><td>Major</td><td>Treated daily</td></tr><tr><td>2016-07-01 12:00:00.0</td><td>Low Back Pain</td><td>Minor</td><td>Treated daily</td></tr></tbody></table></div></div><div><h2>Current Medication Issues</h2><div><p>All relevant items</p></div><div><table><thead><tr><th>Start Date</th><th>Medication Item</th><th>Type</th><th>Scheduled End</th><th>Days Duration</th><th>Details</th></tr></thead><tbody><tr><td>01-05-2015</td><td>Lansoprazole 15mg gastro-resistant capsules</td><td>4</td><td>19-11-2019</td><td>Day Duration 2</td><td>3</td></tr><tr><td>01-07-2016</td><td>Amoxicillin 500mg capsules Supply (42) capsule(s)</td><td>2</td><td>19-11-2019</td><td>Day Duration 4</td><td>3</td></tr></tbody></table></div></div><div><h2>Current Repeat Medications</h2><div><p>All relevant items</p></div><div><table><thead><tr><th>Last Issued</th><th>Medication Item</th><th>Start Date</th><th>Review Date</th><th>Number Issued</th><th>Max Issues</th><th>Details</th></tr></thead><tbody><tr><td>Issue more</td><td>Metformin 500mg tablets</td><td>01-05-2015</td><td>Issue more</td><td>Issue more</td><td>Issue more</td><td>3</td></tr><tr><td>Issue more</td><td>Metformin 500mg tablets</td><td>01-07-2016</td><td>Issue more</td><td>Issue more</td><td>Issue more</td><td>3</td></tr></tbody></table></div></div><div><h2>Current Allergies and Adverse Reactions</h2><div><p>All relevant items</p></div><div><table><thead><tr><th>Start Date</th><th>Details</th></tr></thead><tbody><tr><td>2015-05-01 12:17:00.0</td><td>Work allergy</td></tr><tr><td>2016-07-01 12:17:00.0</td><td>Work allergy</td></tr></tbody></table></div></div><div><h2>Last 3 Encounters</h2><div><p>All relevant items</p></div><div><table><thead><tr><th>Date</th><th>Title</th><th>Details</th></tr></thead><tbody><tr><td>2016-07-01 12:17:00</td><td>Miss Tanya Turnpike (Practice Nurse) - Dr Johnson and Partners (J12345)</td><td>Result : Full blood count - FBC - Normal - No Action.</td></tr><tr><td>2016-07-01 12:17:00</td><td>Miss Messenger</td><td>Result : All good - No Action.</td></tr><tr><td>2016-07-01 12:17:00</td><td>Mr Pickles</td><td>Result : Hmm, something maybe wrong - Possible Action required.</td></tr></tbody></table></div></div></div>"
                        }
                    }]
            }
        }, {
            "fullUrl": "Practitioner/3",
            "resource": {
                "resourceType": "Practitioner",
                "id": "3",
                "meta": {
                    "versionId": "1469448000000",
                    "lastUpdated": "2016-07-25T12:00:00.000+00:00",
                    "profile": ["http://fhir.nhs.net/StructureDefinition/CareConnect-GPC-Practitioner-1"]
                },
                "identifier": [{
                        "system": "https://fhir.nhs.uk/Id/sds-user-id",
                        "value": "G11111116"
                    }, {
                        "system": "https://fhir.nhs.uk/Id/sds-role-profile-id",
                        "value": "PT1234"
                    }],
                "name": {
                    "use": "usual",
                    "family": ["Parsons"],
                    "given": ["Melissa"],
                    "prefix": ["Mrs"]
                },
                "gender": "female",
                "practitionerRole": [{
                        "managingOrganization": {
                            "reference": "Organization/2"
                        },
                        "role": {
                            "coding": [{
                                    "system": "https://fhir.hl7.org.uk/ValueSet/CareConnect-SDSJobRoleName-1",
                                    "code": "R0042",
                                    "display": "paediatrician"
                                }]
                        }
                    }],
                "communication": [{
                        "coding": [{
                                "system": "http://fhir.nhs.net/ValueSet/human-language-1",
                                "code": "de",
                                "display": "German"
                            }]
                    }]
            }
        }, {
            "fullUrl": "Organization/2",
            "resource": {
                "resourceType": "Organization",
                "id": "2",
                "meta": {
                    "versionId": "1469448000000",
                    "lastUpdated": "2016-07-25T12:00:00.000+00:00",
                    "profile": ["http://fhir.nhs.net/StructureDefinition/CareConnect-GPC-Organization-1"]
                },
                "identifier": [{
                        "system": "https://fhir.nhs.uk/Id/ods-organization-code",
                        "value": "R1A14"
                    }],
                "type": {
                    "coding": [{
                            "system": "http://hl7.org/fhir/ValueSet/organization-type",
                            "code": "dept",
                            "display": "Hospital Department"
                        }]
                },
                "name": "Test GP Care Trust",
                "telecom": [{
                        "system": "phone",
                        "use": "work"
                    }],
                "address": [{
                        "use": "work",
                        "type": "physical"
                    }],
                "contact": [{
                        "purpose": {
                            "coding": [{
                                    "system": "http://hl7.org/fhir/ValueSet/contactentity-type",
                                    "code": "ADMIN"
                                }]
                        },
                        "name": {
                            "use": "usual",
                            "family": ["FamilyName"]
                        },
                        "telecom": [{
                                "system": "phone",
                                "use": "work"
                            }],
                        "address": {
                            "use": "work",
                            "type": "physical"
                        }
                    }]
            }
        }, {
            "fullUrl": "Patient/2",
            "resource": {
                "resourceType": "Patient",
                "id": "2",
                "meta": {
                    "versionId": "1469448000000",
                    "lastUpdated": "2016-07-25T12:00:00.000+00:00",
                    "profile": ["https://fhir.nhs.uk/StructureDefinition/CareConnect-GPC-Patient-1"]
                },
                "identifier": [{
                        "extension": [{
                                "url": "https://fhir.nhs.uk/StructureDefinition/Extension-CareConnect-GPC-NHSNumberVerificationStatus-1",
                                "valueCodeableConcept": {
                                    "coding": [{
                                            "system": "https://fhir.nhs.uk/CareConnect-NHSNumberVerificationStatus-1",
                                            "code": "01",
                                            "display": "Number present and verified"
                                        }]
                                }
                            }],
                        "system": "https://fhir.nhs.uk/Id/nhs-number",
                        "value": "9476719931"
                    }],
                "active": true,
                "name": [{
                        "use": "usual",
                        "text": "Minnie DAWES",
                        "family": ["DAWES"],
                        "given": ["Minnie"],
                        "prefix": ["MRS"]
                    }],
                "telecom": [{
                        "system": "phone",
                        "value": "01454587554",
                        "use": "home"
                    }],
                "gender": "female",
                "birthDate": "1952-05-31",
                "address": [{
                        "use": "home",
                        "type": "physical",
                        "text": "24 GRAMMAR SCHOOL ROAD, BRIGG, DN20 8AF"
                    }],
                "maritalStatus": {
                    "coding": [{
                            "system": "https://fhir.nhs.uk/ValueSet/CareConnect-MaritalStatus-1",
                            "code": "M",
                            "display": "Married"
                        }]
                },
                "multipleBirthBoolean": false,
                "careProvider": [{
                        "reference": "Practitioner/3",
                        "display": "Mrs Melissa Parsons"
                    }],
                "managingOrganization": {
                    "reference": "Organization/2"
                }
            }
        }]
}